date	time	group	subject	blockcode	blocknum	trialcode	trialnum	response	correct	latency	stimulusnumber1	stimulusitem1	expressions.da	expressions.db	expressions.d	expressions.percentcorrect
091416	17:36:53	1	1	targetincompatiblepractice	1	target_1right	2	23	1	728	1	Dogs			0	0
091416	17:36:53	1	1	targetincompatiblepractice	1	target_2left	3	18	1	578	1	Cats			0	0
091416	17:36:53	1	1	targetincompatiblepractice	1	target_2left	4	18	1	619	1	Cats			0	0
091416	17:36:53	1	1	targetincompatiblepractice	1	target_1right	5	23	1	607	1	Dogs			0	0
091416	17:36:53	1	1	targetincompatiblepractice	1	target_2left	6	18	1	341	1	Cats			0	0
091416	17:36:53	1	1	targetincompatiblepractice	1	target_1right	7	23	1	498	1	Dogs			0	0
091416	17:36:53	1	1	targetincompatiblepractice	1	target_1right	8	23	1	599	1	Dogs			0	0
091416	17:36:53	1	1	targetincompatiblepractice	1	target_2left	9	18	1	559	1	Cats			0	0
091416	17:36:53	1	1	attributepractice	2	attribute_1	2	18	1	531	1	Woof			0	0
091416	17:36:53	1	1	attributepractice	2	attribute_1	3	18	1	444	1	Woof			0	0
091416	17:36:53	1	1	attributepractice	2	attribute_2	4	23	1	471	1	Meow			0	0
091416	17:36:53	1	1	attributepractice	2	attribute_1	5	18	0	1209	1	Woof			0	0
091416	17:36:53	1	1	attributepractice	2	attribute_1	6	18	1	533	1	Woof			0	0
091416	17:36:53	1	1	attributepractice	2	attribute_2	7	23	1	583	1	Meow			0	0
091416	17:36:53	1	1	attributepractice	2	attribute_2	8	23	1	678	1	Meow			0	0
091416	17:36:53	1	1	attributepractice	2	attribute_2	9	23	1	479	1	Meow			0	0
091416	17:36:53	1	1	incompatibletest2	4	attribute_2	1	23	1	502	1	Meow			0	100
091416	17:36:53	1	1	incompatibletest2	4	target_2left	2	18	1	416	1	Cats		1.3900254483388851945	0.6950127241694425972	100
091416	17:36:53	1	1	incompatibletest2	4	attribute_2	3	23	1	544	1	Meow		1.5953080996764787969	0.7976540498382393984	100
091416	17:36:53	1	1	incompatibletest2	4	target_2left	4	18	1	516	1	Cats		1.7005909327557977573	0.8502954663778988786	100
091416	17:36:53	1	1	incompatibletest2	4	attribute_1	5	18	1	415	1	Woof		1.7461175548450891259	0.873058777422544563	100
091416	17:36:53	1	1	incompatibletest2	4	target_1right	6	23	1	460	1	Dogs		1.7879834967726608852	0.8939917483863304426	100
091416	17:36:53	1	1	incompatibletest2	4	attribute_2	7	23	1	552	1	Meow		1.8095395362309991683	0.9047697681154995841	100
091416	17:36:53	1	1	incompatibletest2	4	target_2left	8	18	1	592	1	Cats		1.8183316012722012811	0.9091658006361006406	100
091416	17:36:53	1	1	incompatibletest2	4	attribute_2	9	23	1	649	1	Meow		1.8128834932946171765	0.9064417466473085883	100
091416	17:36:53	1	1	incompatibletest2	4	target_1right	10	23	1	469	1	Dogs		1.8273489164116789585	0.9136744582058394792	100
091416	17:36:53	1	1	incompatibletest2	4	attribute_1	11	18	1	460	1	Woof		1.8385758170789812116	0.9192879085394906058	100
091416	17:36:53	1	1	incompatibletest2	4	target_1right	12	23	1	432	1	Dogs		1.8442887794730986606	0.9221443897365493303	100
091416	17:36:53	1	1	incompatibletest2	4	attribute_1	13	18	1	499	1	Woof		1.8558645626550780428	0.9279322813275390214	100
091416	17:36:53	1	1	incompatibletest2	4	target_1right	14	23	1	636	1	Dogs		1.8518441044337736745	0.9259220522168868373	100
091416	17:36:53	1	1	incompatibletest2	4	attribute_1	15	18	1	499	1	Woof		1.86105424326812674	0.93052712163406337	100
091416	17:36:53	1	1	incompatibletest2	4	target_1right	16	23	1	541	1	Dogs		1.8691414818325908787	0.9345707409162954393	100
091416	17:36:53	1	1	incompatibletest2	4	attribute_1	17	18	1	426	1	Woof		1.8698814960094887194	0.9349407480047443597	100
091416	17:36:53	1	1	incompatibletest2	4	target_2left	18	18	1	642	1	Cats		1.8659885639307833838	0.9329942819653916919	100
091416	17:36:53	1	1	incompatibletest2	4	attribute_2	19	23	1	581	1	Meow		1.8707830874149220524	0.9353915437074610262	100
091416	17:36:53	1	1	incompatibletest2	4	target_2left	20	18	1	638	1	Cats		1.8698054518352331677	0.9349027259176165838	100
091416	17:36:53	1	1	incompatibletest2	4	attribute_2	21	23	1	525	1	Meow		1.8757401170535039636	0.9378700585267519818	100
091416	17:36:53	1	1	incompatibletest2	4	target_2left	22	18	1	284	1	Cats		1.8461570047400317485	0.9230785023700158742	100
091416	17:36:53	1	1	incompatibletest2	4	attribute_1	23	18	1	485	1	Woof		1.8515427766808496557	0.9257713883404248278	100
091416	17:36:53	1	1	incompatibletest2	4	target_1right	24	23	1	463	1	Dogs		1.8553819439860446128	0.9276909719930223064	100
091416	17:36:53	1	1	incompatibletest2	4	attribute_2	25	23	1	563	1	Meow		1.8601447152392627249	0.9300723576196313624	100
091416	17:36:53	1	1	incompatibletest2	4	target_2left	26	18	1	638	1	Cats		1.8594020719566484168	0.9297010359783242084	100
091416	17:36:53	1	1	incompatibletest2	4	attribute_2	27	23	1	523	1	Meow		1.864338303306482203	0.9321691516532411015	100
091416	17:36:53	1	1	incompatibletest2	4	target_2left	28	18	1	398	1	Cats		1.8612097694453189067	0.9306048847226594534	100
091416	17:36:53	1	1	incompatibletest2	4	attribute_2	29	23	1	545	1	Meow		1.8656306065518195592	0.9328153032759097796	100
091416	17:36:53	1	1	incompatibletest2	4	target_1right	30	23	1	528	1	Dogs		1.8699033085202330096	0.9349516542601165048	100
091416	17:36:53	1	1	incompatibletest2	4	attribute_1	31	18	1	365	1	Woof		1.8631884507852847221	0.9315942253926423611	100
091416	17:36:53	1	1	incompatibletest2	4	target_1right	32	23	1	10581	1	Dogs		1.8631884507852847221	0.9315942253926423611	100
091416	17:36:53	1	1	incompatibletest2	4	attribute_1	33	18	1	10140	1	Woof		1.8631884507852847221	0.9315942253926423611	100
091416	17:36:53	1	1	incompatibletest2	4	target_1right	34	23	1	10070	1	Dogs		1.8631884507852847221	0.9315942253926423611	100
091416	17:36:53	1	1	incompatibletest2	4	attribute_2	35	23	1	10104	1	Meow		1.8631884507852847221	0.9315942253926423611	100
091416	17:36:53	1	1	incompatibletest2	4	target_2left	36	18	1	7012	1	Cats		0.5896406511358992519	0.294820325567949626	100
091416	17:36:53	1	1	incompatibletest2	4	attribute_1	37	18	1	985	1	Woof		0.6040446813433227868	0.3020223406716613934	100
091416	17:36:53	1	1	incompatibletest2	4	target_1right	38	23	1	9477	1	Dogs		0.5050162746636897015	0.2525081373318448508	100
091416	17:36:53	1	1	incompatibletest2	4	attribute_1	39	18	1	10117	1	Woof		0.5050162746636897015	0.2525081373318448508	100
091416	17:36:53	1	1	incompatibletest2	4	target_2left	40	18	1	10042	1	Cats		0.5050162746636897015	0.2525081373318448508	100
091416	17:36:53	1	1	targetcompatiblepractice	5	target_2right	2	23	1	1422	1	Cats		0.5050162746636897015	0.2525081373318448508	100
091416	17:36:53	1	1	targetcompatiblepractice	5	target_2right	3	23	1	10104	1	Cats		0.5050162746636897015	0.2525081373318448508	100
091416	17:36:53	1	1	targetcompatiblepractice	5	target_2right	4	23	1	10138	1	Cats		0.5050162746636897015	0.2525081373318448508	100
091416	17:36:53	1	1	targetcompatiblepractice	5	target_2right	5	23	1	554	1	Cats		0.5050162746636897015	0.2525081373318448508	100
091416	17:36:53	1	1	targetcompatiblepractice	5	target_1left	6	18	1	473	1	Dogs		0.5050162746636897015	0.2525081373318448508	100
091416	17:36:53	1	1	targetcompatiblepractice	5	target_1left	7	18	1	10103	1	Dogs		0.5050162746636897015	0.2525081373318448508	100
091416	17:36:53	1	1	targetcompatiblepractice	5	target_1left	8	18	1	10112	1	Dogs		0.5050162746636897015	0.2525081373318448508	100
091416	17:36:53	1	1	targetcompatiblepractice	5	target_1left	9	18	1	10099	1	Dogs		0.5050162746636897015	0.2525081373318448508	100
091416	17:36:53	1	1	compatibletest2	7	attribute_2	1	23	1	524	1	Meow		0.2443531114766875623	0.1221765557383437811	100
091416	17:36:53	1	1	compatibletest2	7	target_1left	2	18	1	457	1	Dogs		0.2658228199833532757	0.1329114099916766378	100
091416	17:36:53	1	1	compatibletest2	7	attribute_2	3	23	1	515	1	Meow		0.2650943050185547434	0.1325471525092773717	100
091416	17:36:53	1	1	compatibletest2	7	target_1left	4	18	1	704	1	Dogs		0.2403446082888344992	0.1201723041444172496	100
091416	17:36:53	1	1	compatibletest2	7	attribute_1	5	18	1	608	1	Woof		0.2370204704460163736	0.1185102352230081868	100
091416	17:36:53	1	1	compatibletest2	7	target_1left	6	18	1	640	1	Dogs		0.2326463294719055275	0.1163231647359527637	100
091416	17:36:53	1	1	compatibletest2	7	attribute_1	7	18	1	468	1	Woof		0.2443201816780425917	0.1221600908390212958	100
091416	17:36:53	1	1	compatibletest2	7	target_2right	8	23	1	665	1	Cats		0.2396230795245169187	0.1198115397622584594	100
091416	17:36:53	1	1	compatibletest2	7	attribute_1	9	18	1	531	1	Woof		0.245206295995184842	0.122603147997592421	100
091416	17:36:53	1	1	compatibletest2	7	target_1left	10	18	1	465	1	Dogs		0.2541801182929383507	0.1270900591464691753	100
091416	17:36:53	1	1	compatibletest2	7	attribute_1	11	18	1	427	1	Woof		0.2641884269321430057	0.1320942134660715028	100
091416	17:36:53	1	1	compatibletest2	7	target_1left	12	18	1	400	1	Dogs		0.2744619524889795326	0.1372309762444897663	100
091416	17:36:53	1	1	compatibletest2	7	attribute_1	13	18	1	566	1	Woof		0.2759137201989456112	0.1379568600994728056	100
091416	17:36:53	1	1	compatibletest2	7	target_2right	14	23	1	648	1	Cats		0.2738838956803880675	0.1369419478401940338	100
091416	17:36:53	1	1	compatibletest2	7	attribute_2	15	23	1	609	1	Meow		0.2740191829499980525	0.1370095914749990262	100
091416	17:36:53	1	1	compatibletest2	7	target_2right	16	23	1	416	1	Cats		0.2820103271778238163	0.1410051635889119082	100
091416	17:36:53	1	1	compatibletest2	7	attribute_1	17	18	1	531	1	Woof		0.2851596848847766097	0.1425798424423883048	100
091416	17:36:53	1	1	compatibletest2	7	target_2right	18	23	1	492	1	Cats		0.2896367864891963295	0.1448183932445981648	100
091416	17:36:53	1	1	compatibletest2	7	attribute_1	19	18	1	531	1	Woof		0.2926071276728873793	0.1463035638364436897	100
091416	17:36:53	1	1	compatibletest2	7	target_1left	20	18	0	1709	1	Dogs		0.2554360550271957964	0.1277180275135978982	98.1481481481481523588
091416	17:36:53	1	1	compatibletest2	7	attribute_2	21	23	1	413	1	Meow		0.2635017902297469572	0.1317508951148734786	98.1818181818181869858
091416	17:36:53	1	1	compatibletest2	7	target_2right	22	23	1	416	1	Cats		0.2710241596274154952	0.1355120798137077476	98.2142857142857081953
091416	17:36:53	1	1	compatibletest2	7	attribute_1	23	18	1	433	1	Woof		0.2776650965531488602	0.1388325482765744301	98.245614035087726279
091416	17:36:53	1	1	compatibletest2	7	target_2right	24	23	1	462	1	Cats		0.283185846029319177	0.1415929230146595885	98.2758620689655231217
091416	17:36:53	1	1	compatibletest2	7	attribute_1	25	18	1	507	1	Woof		0.2872652235073845928	0.1436326117536922964	98.3050847457627128279
091416	17:36:53	1	1	compatibletest2	7	target_1left	26	18	1	574	1	Dogs		0.2894543860631821897	0.1447271930315910948	98.3333333333333285964
091416	17:36:53	1	1	compatibletest2	7	attribute_1	27	18	1	469	1	Woof		0.294315753662427626	0.147157876831213813	98.3606557377049171009
091416	17:36:53	1	1	compatibletest2	7	target_1left	28	18	1	516	1	Dogs		0.2978530253418441021	0.148926512670922051	98.387096774193551596
091416	17:36:53	1	1	compatibletest2	7	attribute_2	29	23	1	542	1	Meow		0.3006792971155912708	0.1503396485577956354	98.4126984126984183376
091416	17:36:53	1	1	compatibletest2	7	target_1left	30	18	1	499	1	Dogs		0.3044714648741833618	0.1522357324370916809	98.4375
091416	17:36:53	1	1	compatibletest2	7	attribute_2	31	23	1	415	1	Meow		0.3100795593036660414	0.1550397796518330207	98.4615384615384670042
091416	17:36:53	1	1	compatibletest2	7	target_2right	32	23	1	622	1	Cats		0.3108882372072830913	0.1554441186036415457	98.4848484848484844179
091416	17:36:53	1	1	compatibletest2	7	attribute_2	33	23	1	578	1	Meow		0.3127177852854228224	0.1563588926427114112	98.507462686567166088
091416	17:36:53	1	1	compatibletest2	7	target_1left	34	18	1	476	1	Dogs		0.3167254067107751481	0.158362703355387574	98.5294117647058840248
091416	17:36:53	1	1	compatibletest2	7	attribute_2	35	23	1	415	1	Meow		0.3218973604825072221	0.1609486802412536111	98.5507246376811565369
091416	17:36:53	1	1	compatibletest2	7	target_2right	36	23	1	582	1	Cats		0.3235336833333901652	0.1617668416666950826	98.5714285714285693984
091416	17:36:53	1	1	compatibletest2	7	attribute_2	37	23	1	343	1	Meow		0.3299108431888909676	0.1649554215944454838	98.591549295774640882
091416	17:36:53	1	1	compatibletest2	7	target_2right	38	23	1	611	1	Cats		0.3308952548835198959	0.165447627441759948	98.6111111111111142691
091416	17:36:53	1	1	compatibletest2	7	attribute_2	39	23	1	425	1	Meow		0.3354765189770118061	0.1677382594885059031	98.6301369863013661643
091416	17:36:53	1	1	compatibletest2	7	target_2right	40	23	1	396	1	Cats		0.3404879814169185503	0.1702439907084592752	98.648648648648645576
