date	time	group	subject	build	blocknum	trialnum	blockcode	trialcode	pretrialpause	posttrialpause	trialduration	trialtimeout	response	correct	latency	stimulusnumber1	stimulusitem1	stimulusonset1	stimulusnumber2	stimulusitem2	stimulusonset2	stimulusnumber3	stimulusitem3	stimulusonset3	stimulusnumber4	stimulusitem4	stimulusonset4	stimulusnumber5	stimulusitem5	stimulusonset5
091416	17:41:13	1	1	5.0.5.0	1	1	Relational_Training_Phase_Block_1	A1_B1_B2	500	0	0	0	33	1	466	1	PRU	491	1	WUP	991	1	LAF	991	1	Press 'F' for	991	1	Press 'J' for	991
091416	17:41:13	1	1	5.0.5.0	1	2	Relational_Training_Phase_Block_1	A2_B2_B1	500	0	0	0	33	1	581	1	VAZ	491	1	LAF	991	1	WUP	991	1	Press 'F' for	991	1	Press 'J' for	991
091416	17:41:13	1	1	5.0.5.0	1	3	Relational_Training_Phase_Block_1	A2_C2_C1	500	0	0	0	33	1	529	1	VAZ	491	1	YEL	991	1	DWA	991	1	Press 'F' for	991	1	Press 'J' for	991
091416	17:41:13	1	1	5.0.5.0	1	4	Relational_Training_Phase_Block_1	A2_B1_B2	500	0	0	0	36	1	435	1	VAZ	491	1	LAF	991	1	WUP	991	1	Press 'F' for	991	1	Press 'J' for	991
091416	17:41:13	1	1	5.0.5.0	1	5	Relational_Training_Phase_Block_1	A2_B2_B1	500	0	0	0	33	1	415	1	VAZ	491	1	LAF	991	1	WUP	991	1	Press 'F' for	991	1	Press 'J' for	991
091416	17:41:13	1	1	5.0.5.0	1	6	Relational_Training_Phase_Block_1	A2_C1_C2	500	0	0	0	36	1	331	1	VAZ	491	1	YEL	991	1	DWA	991	1	Press 'F' for	991	1	Press 'J' for	991
091416	17:41:13	1	1	5.0.5.0	1	7	Relational_Training_Phase_Block_1	A2_B1_B2	500	0	0	0	36	1	512	1	VAZ	491	1	LAF	991	1	WUP	991	1	Press 'F' for	991	1	Press 'J' for	991
091416	17:41:13	1	1	5.0.5.0	1	8	Relational_Training_Phase_Block_1	A1_B2_B1	500	0	0	0	36	1	434	1	PRU	491	1	WUP	991	1	LAF	991	1	Press 'F' for	991	1	Press 'J' for	991
091416	17:41:13	1	1	5.0.5.0	1	9	Relational_Training_Phase_Block_1	A2_C2_C1	500	0	0	0	33	1	517	1	VAZ	491	1	YEL	991	1	DWA	991	1	Press 'F' for	991	1	Press 'J' for	991
091416	17:41:13	1	1	5.0.5.0	1	10	Relational_Training_Phase_Block_1	A2_B1_B2	500	0	0	0	36	1	604	1	VAZ	491	1	LAF	991	1	WUP	991	1	Press 'F' for	991	1	Press 'J' for	991
091416	17:41:13	1	1	5.0.5.0	1	11	Relational_Training_Phase_Block_1	A1_C1_C2	500	0	0	0	33	1	457	1	PRU	491	1	YEL	991	1	DWA	991	1	Press 'F' for	991	1	Press 'J' for	991
091416	17:41:13	1	1	5.0.5.0	1	12	Relational_Training_Phase_Block_1	A2_B2_B1	500	0	0	0	33	1	621	1	VAZ	491	1	LAF	991	1	WUP	991	1	Press 'F' for	991	1	Press 'J' for	991
091416	17:41:13	1	1	5.0.5.0	1	13	Relational_Training_Phase_Block_1	A1_B2_B1	500	0	0	0	36	1	527	1	PRU	491	1	WUP	991	1	LAF	991	1	Press 'F' for	991	1	Press 'J' for	991
091416	17:41:13	1	1	5.0.5.0	1	14	Relational_Training_Phase_Block_1	A1_C1_C2	500	0	0	0	33	1	524	1	PRU	491	1	YEL	991	1	DWA	991	1	Press 'F' for	991	1	Press 'J' for	991
091416	17:41:13	1	1	5.0.5.0	1	15	Relational_Training_Phase_Block_1	A1_C2_C1	500	0	0	0	36	1	555	1	PRU	491	1	YEL	991	1	DWA	991	1	Press 'F' for	991	1	Press 'J' for	991
091416	17:41:13	1	1	5.0.5.0	1	16	Relational_Training_Phase_Block_1	A1_B1_B2	500	0	0	0	33	1	434	1	PRU	491	1	WUP	991	1	LAF	991	1	Press 'F' for	991	1	Press 'J' for	991
091416	17:41:13	1	1	5.0.5.0	1	17	Relational_Training_Phase_Block_1	A1_B2_B1	500	0	0	0	36	1	475	1	PRU	491	1	WUP	991	1	LAF	991	1	Press 'F' for	991	1	Press 'J' for	991
091416	17:41:13	1	1	5.0.5.0	1	18	Relational_Training_Phase_Block_1	A2_C2_C1	500	0	0	0	33	1	513	1	VAZ	491	1	YEL	991	1	DWA	991	1	Press 'F' for	991	1	Press 'J' for	991
091416	17:41:13	1	1	5.0.5.0	1	19	Relational_Training_Phase_Block_1	A2_C1_C2	500	0	0	0	36	1	526	1	VAZ	491	1	YEL	991	1	DWA	991	1	Press 'F' for	991	1	Press 'J' for	991
091416	17:41:13	1	1	5.0.5.0	1	20	Relational_Training_Phase_Block_1	A1_C2_C1	500	0	0	0	36	1	486	1	PRU	491	1	YEL	991	1	DWA	991	1	Press 'F' for	991	1	Press 'J' for	991
091416	17:41:13	1	1	5.0.5.0	1	21	Relational_Training_Phase_Block_1	A1_B1_B2	500	0	0	0	33	1	408	1	PRU	491	1	WUP	1017	1	LAF	1017	1	Press 'F' for	1017	1	Press 'J' for	1017
091416	17:41:13	1	1	5.0.5.0	1	22	Relational_Training_Phase_Block_1	A2_C1_C2	500	0	0	0	36	1	303	1	VAZ	491	1	YEL	991	1	DWA	991	1	Press 'F' for	991	1	Press 'J' for	991
091416	17:41:13	1	1	5.0.5.0	1	23	Relational_Training_Phase_Block_1	A2_C2_C1	500	0	0	0	33	1	665	1	VAZ	491	1	YEL	991	1	DWA	991	1	Press 'F' for	991	1	Press 'J' for	991
